File: PHY327/FTIR/ldpe.csv
3.996813e+002,0.000000e+000
4.020919e+002,2.756336e-003
4.045026e+002,4.268767e-004
4.069132e+002,-6.757100e-003
4.093238e+002,-1.020516e-005
4.117344e+002,6.519503e-003
4.141451e+002,5.678195e-003
4.165557e+002,3.543423e-003
4.189663e+002,2.084300e-004
4.213770e+002,4.417455e-003
4.237876e+002,1.065300e-002
4.261982e+002,3.651938e-003
4.286088e+002,7.639653e-003
4.310194e+002,1.104368e-002
4.334301e+002,1.071086e-002
4.358407e+002,1.187656e-002
4.382513e+002,4.344055e-003
4.406619e+002,1.481561e-003
4.430725e+002,7.576766e-003
4.454832e+002,7.826817e-003
4.478938e+002,8.614505e-003
4.503044e+002,7.469862e-003
4.527150e+002,6.990281e-003
4.551257e+002,4.306038e-003
4.575363e+002,5.606159e-003
4.599469e+002,4.530943e-003
4.623575e+002,6.440165e-003
4.647682e+002,1.052110e-002
4.671788e+002,7.295218e-003
4.695894e+002,6.501105e-003
4.720000e+002,7.304686e-003
4.744106e+002,7.484323e-003
4.768213e+002,6.493605e-003
4.792319e+002,9.279242e-003
4.816425e+002,7.926723e-003
4.840531e+002,2.684016e-003
4.864637e+002,3.156026e-003
4.888744e+002,4.905796e-003
4.912850e+002,4.960287e-003
4.936956e+002,4.388201e-003
4.961062e+002,6.483582e-003
4.985169e+002,8.206452e-003
5.009275e+002,6.156496e-003
5.033381e+002,8.298441e-003
5.057487e+002,8.104693e-003
5.081594e+002,5.651910e-003
5.105700e+002,4.018208e-003
5.129806e+002,5.883020e-003
5.153912e+002,7.202026e-003
5.178019e+002,6.194036e-003
5.202125e+002,6.542174e-003
5.226231e+002,7.454424e-003
5.250337e+002,6.582439e-003
5.274443e+002,6.496396e-003
5.298550e+002,5.871635e-003
5.322656e+002,6.342887e-003
5.346762e+002,6.582776e-003
5.370868e+002,4.932907e-003
5.394974e+002,4.159289e-003
5.419081e+002,5.406597e-003
5.443187e+002,5.290633e-003
5.467293e+002,6.243580e-003
5.491400e+002,6.837270e-003
5.515505e+002,7.108249e-003
5.539612e+002,7.969648e-003
5.563718e+002,8.668787e-003
5.587825e+002,7.721437e-003
5.611931e+002,6.412556e-003
5.636037e+002,5.482089e-003
5.660143e+002,4.341277e-003
5.684249e+002,4.514236e-003
5.708356e+002,4.449456e-003
5.732462e+002,4.923523e-003
5.756568e+002,4.508879e-003
5.780674e+002,6.763730e-003
5.804780e+002,6.151724e-003
5.828887e+002,5.772268e-003
5.852993e+002,6.008516e-003
5.877099e+002,5.614517e-003
5.901205e+002,4.495989e-003
5.925311e+002,4.928617e-003
5.949418e+002,6.170107e-003
5.973524e+002,6.630345e-003
5.997630e+002,5.945831e-003
6.021736e+002,6.018326e-003
6.045842e+002,5.597399e-003
6.069949e+002,6.035090e-003
6.094055e+002,6.474300e-003
6.118162e+002,5.281208e-003
6.142267e+002,5.176142e-003
6.166374e+002,6.110154e-003
6.190480e+002,6.583146e-003
6.214586e+002,6.612985e-003
6.238693e+002,6.022290e-003
6.262798e+002,5.299890e-003
6.286905e+002,5.196865e-003
6.311011e+002,5.607468e-003
6.335117e+002,5.684203e-003
6.359224e+002,6.124134e-003
6.383330e+002,6.528787e-003
6.407436e+002,6.310309e-003
6.431542e+002,5.579308e-003
6.455648e+002,5.824954e-003
6.479755e+002,6.652585e-003
6.503861e+002,6.563803e-003
6.527968e+002,7.054161e-003
6.552073e+002,7.983383e-003
6.576179e+002,7.579193e-003
6.600286e+002,6.602153e-003
6.624392e+002,6.522564e-003
6.648499e+002,7.225306e-003
6.672605e+002,7.889234e-003
6.696711e+002,7.228270e-003
6.720817e+002,7.057394e-003
6.744923e+002,8.122956e-003
6.769030e+002,9.038096e-003
6.793136e+002,7.485975e-003
6.817242e+002,6.286037e-003
6.841348e+002,7.754661e-003
6.865454e+002,7.754897e-003
6.889561e+002,8.222458e-003
6.913667e+002,9.178686e-003
6.937773e+002,1.055844e-002
6.961879e+002,1.190060e-002
6.985985e+002,1.304921e-002
7.010092e+002,1.506847e-002
7.034198e+002,1.864527e-002
7.058304e+002,2.309226e-002
7.082410e+002,3.121507e-002
7.106517e+002,4.784997e-002
7.130623e+002,8.602713e-002
7.154729e+002,1.432642e-001
7.178835e+002,1.641166e-001
7.202942e+002,1.335711e-001
7.227048e+002,9.009647e-002
7.251154e+002,7.042093e-002
7.275260e+002,7.510608e-002
7.299366e+002,8.851150e-002
7.323473e+002,6.158533e-002
7.347579e+002,3.034238e-002
7.371685e+002,1.976312e-002
7.395791e+002,1.633571e-002
7.419897e+002,1.393589e-002
7.444004e+002,1.306727e-002
7.468110e+002,1.252308e-002
7.492216e+002,1.187121e-002
7.516322e+002,1.153841e-002
7.540428e+002,1.057328e-002
7.564535e+002,9.831781e-003
7.588641e+002,9.522283e-003
7.612748e+002,9.361301e-003
7.636854e+002,9.931641e-003
7.660959e+002,1.093429e-002
7.685066e+002,1.077200e-002
7.709172e+002,1.039660e-002
7.733279e+002,1.044449e-002
7.757385e+002,9.907776e-003
7.781491e+002,9.610214e-003
7.805597e+002,9.544874e-003
7.829703e+002,9.000106e-003
7.853810e+002,7.654289e-003
7.877916e+002,7.823680e-003
7.902022e+002,8.666083e-003
7.926128e+002,8.301211e-003
7.950234e+002,8.024221e-003
7.974341e+002,8.260109e-003
7.998447e+002,8.555903e-003
8.022553e+002,9.104444e-003
8.046660e+002,8.436460e-003
8.070765e+002,7.368714e-003
8.094872e+002,7.199601e-003
8.118978e+002,6.849523e-003
8.143085e+002,7.026884e-003
8.167191e+002,7.062715e-003
8.191296e+002,6.486340e-003
8.215403e+002,5.869015e-003
8.239509e+002,5.765015e-003
8.263616e+002,5.821999e-003
8.287722e+002,5.819212e-003
8.311828e+002,6.120975e-003
8.335934e+002,5.897060e-003
8.360040e+002,6.169872e-003
8.384147e+002,6.425470e-003
8.408253e+002,5.789762e-003
8.432359e+002,5.924535e-003
8.456465e+002,5.878117e-003
8.480571e+002,5.361710e-003
8.504678e+002,5.682861e-003
8.528784e+002,5.782509e-003
8.552891e+002,5.588303e-003
8.576996e+002,5.761960e-003
8.601102e+002,6.248421e-003
8.625209e+002,6.917826e-003
8.649315e+002,6.683169e-003
8.673422e+002,6.679132e-003
8.697527e+002,6.159353e-003
8.721634e+002,5.496719e-003
8.745740e+002,5.432867e-003
8.769846e+002,5.697296e-003
8.793953e+002,6.389859e-003
8.818059e+002,6.751379e-003
8.842165e+002,6.644880e-003
8.866271e+002,7.057798e-003
8.890377e+002,7.583644e-003
8.914484e+002,6.867935e-003
8.938590e+002,6.425234e-003
8.962697e+002,6.460511e-003
8.986802e+002,6.503426e-003
9.010908e+002,6.533294e-003
9.035015e+002,6.467641e-003
9.059121e+002,6.801895e-003
9.083228e+002,6.761105e-003
9.107333e+002,6.002972e-003
9.131440e+002,5.886480e-003
9.155546e+002,6.353008e-003
9.179652e+002,6.451633e-003
9.203759e+002,5.998740e-003
9.227864e+002,6.287314e-003
9.251971e+002,6.201027e-003
9.276077e+002,5.700284e-003
9.300183e+002,5.762900e-003
9.324290e+002,5.623915e-003
9.348396e+002,5.753163e-003
9.372502e+002,5.946435e-003
9.396608e+002,6.199952e-003
9.420714e+002,6.087305e-003
9.444821e+002,6.262808e-003
9.468927e+002,5.864851e-003
9.493033e+002,6.276456e-003
9.517139e+002,6.643332e-003
9.541246e+002,6.785841e-003
9.565352e+002,7.044496e-003
9.589458e+002,6.891432e-003
9.613564e+002,6.672167e-003
9.637670e+002,6.559363e-003
9.661777e+002,6.342685e-003
9.685883e+002,6.549339e-003
9.709989e+002,6.584188e-003
9.734095e+002,6.278944e-003
9.758201e+002,6.460612e-003
9.782308e+002,6.375568e-003
9.806414e+002,6.665505e-003
9.830520e+002,7.081137e-003
9.854626e+002,6.530738e-003
9.878733e+002,6.181097e-003
9.902839e+002,6.714194e-003
9.926945e+002,6.712006e-003
9.951052e+002,6.639597e-003
9.975157e+002,6.772985e-003
9.999264e+002,6.947453e-003
1.002337e+003,7.246598e-003
1.004748e+003,7.147893e-003
1.007158e+003,7.107037e-003
1.009569e+003,7.109697e-003
1.011979e+003,7.560784e-003
1.014390e+003,8.079645e-003
1.016801e+003,8.430514e-003
1.019211e+003,8.126164e-003
1.021622e+003,8.126670e-003
1.024033e+003,8.152869e-003
1.026443e+003,8.002418e-003
1.028854e+003,7.887547e-003
1.031264e+003,7.941470e-003
1.033675e+003,7.743361e-003
1.036086e+003,8.124745e-003
1.038496e+003,8.255754e-003
1.040907e+003,7.853807e-003
1.043318e+003,8.188219e-003
1.045728e+003,8.395583e-003
1.048139e+003,8.780721e-003
1.050549e+003,9.216997e-003
1.052960e+003,9.226000e-003
1.055371e+003,9.072606e-003
1.057781e+003,8.718276e-003
1.060192e+003,9.017325e-003
1.062603e+003,9.450114e-003
1.065013e+003,9.332152e-003
1.067424e+003,9.208028e-003
1.069834e+003,9.220990e-003
1.072245e+003,9.324704e-003
1.074656e+003,9.668924e-003
1.077066e+003,1.026627e-002
1.079477e+003,1.085257e-002
1.081888e+003,1.050541e-002
1.084298e+003,9.942829e-003
1.086709e+003,9.858185e-003
1.089119e+003,1.010040e-002
1.091530e+003,9.938896e-003
1.093941e+003,9.797314e-003
1.096351e+003,9.460578e-003
1.098762e+003,9.206404e-003
1.101173e+003,9.533222e-003
1.103583e+003,9.747804e-003
1.105994e+003,9.667128e-003
1.108404e+003,9.407822e-003
1.110815e+003,9.021080e-003
1.113226e+003,9.319795e-003
1.115636e+003,9.542604e-003
1.118047e+003,9.263942e-003
1.120458e+003,9.103767e-003
1.122868e+003,8.973315e-003
1.125279e+003,8.609097e-003
1.127689e+003,8.491126e-003
1.130100e+003,8.965028e-003
1.132511e+003,9.027474e-003
1.134921e+003,8.862246e-003
1.137332e+003,8.675547e-003
1.139742e+003,8.546677e-003
1.142153e+003,8.708709e-003
1.144564e+003,8.497140e-003
1.146974e+003,8.169716e-003
1.149385e+003,8.502986e-003
1.151796e+003,8.454670e-003
1.154206e+003,8.591083e-003
1.156617e+003,8.636812e-003
1.159027e+003,8.394637e-003
1.161438e+003,8.316374e-003
1.163849e+003,8.294759e-003
1.166259e+003,8.381329e-003
1.168670e+003,8.422575e-003
1.171081e+003,8.412508e-003
1.173491e+003,8.183188e-003
1.175902e+003,8.119985e-003
1.178313e+003,8.166104e-003
1.180723e+003,8.156751e-003
1.183134e+003,8.158675e-003
1.185544e+003,8.331235e-003
1.187955e+003,8.626469e-003
1.190366e+003,8.831067e-003
1.192776e+003,8.961138e-003
1.195187e+003,8.879763e-003
1.197597e+003,8.658985e-003
1.200008e+003,8.652664e-003
1.202419e+003,8.311849e-003
1.204829e+003,8.315091e-003
1.207240e+003,8.166272e-003
1.209651e+003,8.071780e-003
1.212061e+003,8.315801e-003
1.214472e+003,8.787720e-003
1.216882e+003,8.457271e-003
1.219293e+003,8.011902e-003
1.221704e+003,7.769030e-003
1.224114e+003,7.766298e-003
1.226525e+003,8.303034e-003
1.228936e+003,8.386665e-003
1.231346e+003,8.100440e-003
1.233757e+003,8.147804e-003
1.236167e+003,8.393962e-003
1.238578e+003,8.451494e-003
1.240989e+003,8.648608e-003
1.243399e+003,8.847434e-003
1.245810e+003,8.845473e-003
1.248220e+003,8.774431e-003
1.250631e+003,8.890112e-003
1.253042e+003,9.071860e-003
1.255452e+003,9.322470e-003
1.257863e+003,9.469450e-003
1.260274e+003,9.416558e-003
1.262684e+003,9.471855e-003
1.265095e+003,9.800432e-003
1.267505e+003,9.623900e-003
1.269916e+003,9.537998e-003
1.272327e+003,9.858998e-003
1.274737e+003,1.024476e-002
1.277148e+003,1.031146e-002
1.279559e+003,1.007133e-002
1.281969e+003,1.036151e-002
1.284380e+003,1.063375e-002
1.286791e+003,1.080695e-002
1.289201e+003,1.092406e-002
1.291612e+003,1.119675e-002
1.294022e+003,1.152385e-002
1.296433e+003,1.199674e-002
1.298844e+003,1.240036e-002
1.301254e+003,1.244561e-002
1.303665e+003,1.231650e-002
1.306075e+003,1.236273e-002
1.308486e+003,1.240169e-002
1.310897e+003,1.196582e-002
1.313307e+003,1.130645e-002
1.315718e+003,1.087078e-002
1.318129e+003,1.061507e-002
1.320539e+003,1.019191e-002
1.322950e+003,9.873946e-003
1.325360e+003,9.877980e-003
1.327771e+003,9.613703e-003
1.330182e+003,9.638839e-003
1.332592e+003,9.941337e-003
1.335003e+003,1.018285e-002
1.337414e+003,1.058658e-002
1.339824e+003,1.125945e-002
1.342235e+003,1.198435e-002
1.344646e+003,1.250944e-002
1.347056e+003,1.323927e-002
1.349467e+003,1.390452e-002
1.351877e+003,1.431588e-002
1.354288e+003,1.412572e-002
1.356698e+003,1.433985e-002
1.359109e+003,1.479100e-002
1.361520e+003,1.544364e-002
1.363930e+003,1.649476e-002
1.366341e+003,1.723721e-002
1.368752e+003,1.752614e-002
1.371162e+003,1.729117e-002
1.373573e+003,1.742718e-002
1.375984e+003,1.918358e-002
1.378394e+003,1.929794e-002
1.380805e+003,1.602887e-002
1.383215e+003,1.209397e-002
1.385626e+003,1.003919e-002
1.388037e+003,9.203459e-003
1.390447e+003,8.902659e-003
1.392858e+003,8.982110e-003
1.395269e+003,8.790694e-003
1.397679e+003,8.428217e-003
1.400090e+003,8.340727e-003
1.402500e+003,8.311511e-003
1.404911e+003,8.686771e-003
1.407322e+003,9.205963e-003
1.409732e+003,9.570514e-003
1.412143e+003,9.755699e-003
1.414553e+003,9.972121e-003
1.416964e+003,1.042884e-002
1.419375e+003,1.098356e-002
1.421785e+003,1.166589e-002
1.424196e+003,1.299762e-002
1.426607e+003,1.464941e-002
1.429017e+003,1.658794e-002
1.431428e+003,1.961414e-002
1.433838e+003,2.228532e-002
1.436249e+003,2.486675e-002
1.438660e+003,2.697512e-002
1.441070e+003,2.882672e-002
1.443481e+003,3.089419e-002
1.445892e+003,3.297758e-002
1.448302e+003,3.602526e-002
1.450713e+003,4.135359e-002
1.453124e+003,5.012532e-002
1.455534e+003,5.965421e-002
1.457945e+003,7.723481e-002
1.460355e+003,1.041723e-001
1.462766e+003,1.262164e-001
1.465177e+003,1.205880e-001
1.467587e+003,1.198977e-001
1.469998e+003,1.332535e-001
1.472408e+003,1.390632e-001
1.474819e+003,7.510663e-002
1.477230e+003,3.149090e-002
1.479640e+003,1.935274e-002
1.482051e+003,1.443818e-002
1.484461e+003,1.203837e-002
1.486872e+003,1.114688e-002
1.489283e+003,9.966154e-003
1.491693e+003,9.054843e-003
1.494104e+003,8.789308e-003
1.496515e+003,8.120020e-003
1.498925e+003,7.964451e-003
1.501336e+003,7.810455e-003
1.503747e+003,7.506202e-003
1.506157e+003,7.267656e-003
1.508568e+003,6.662948e-003
1.510979e+003,6.659684e-003
1.513389e+003,6.577023e-003
1.515800e+003,5.948014e-003
1.518210e+003,6.137508e-003
1.520621e+003,6.304258e-003
1.523031e+003,6.043188e-003
1.525442e+003,6.385118e-003
1.527853e+003,6.071881e-003
1.530263e+003,5.845137e-003
1.532674e+003,6.072151e-003
1.535085e+003,6.116472e-003
1.537495e+003,6.366221e-003
1.539906e+003,6.279583e-003
1.542316e+003,5.840939e-003
1.544727e+003,5.747321e-003
1.547138e+003,5.451454e-003
1.549548e+003,5.345039e-003
1.551959e+003,5.405758e-003
1.554370e+003,5.415756e-003
1.556780e+003,5.245658e-003
1.559191e+003,4.807622e-003
1.561602e+003,5.116058e-003
1.564012e+003,5.078778e-003
1.566423e+003,5.024540e-003
1.568833e+003,5.111834e-003
1.571244e+003,5.190829e-003
1.573655e+003,5.204879e-003
1.576065e+003,5.222082e-003
1.578476e+003,5.203336e-003
1.580886e+003,5.255115e-003
1.583297e+003,5.292846e-003
1.585708e+003,5.381201e-003
1.588118e+003,5.464909e-003
1.590529e+003,5.373485e-003
1.592939e+003,5.432229e-003
1.595350e+003,5.414481e-003
1.597761e+003,5.294524e-003
1.600171e+003,5.502994e-003
1.602582e+003,5.581826e-003
1.604993e+003,5.603944e-003
1.607403e+003,5.688501e-003
1.609814e+003,5.820555e-003
1.612225e+003,5.868780e-003
1.614635e+003,5.890174e-003
1.617046e+003,5.889771e-003
1.619456e+003,6.150178e-003
1.621867e+003,6.492899e-003
1.624278e+003,6.944524e-003
1.626688e+003,7.238041e-003
1.629099e+003,7.778205e-003
1.631510e+003,8.270207e-003
1.633920e+003,8.346098e-003
1.636331e+003,8.225632e-003
1.638741e+003,8.527247e-003
1.641152e+003,9.635757e-003
1.643563e+003,1.054075e-002
1.645973e+003,1.067979e-002
1.648384e+003,9.934455e-003
1.650794e+003,9.395801e-003
1.653205e+003,8.330527e-003
1.655616e+003,8.265547e-003
1.658026e+003,8.447001e-003
1.660437e+003,8.273145e-003
1.662848e+003,8.017471e-003
1.665258e+003,7.964451e-003
1.667669e+003,7.625456e-003
1.670080e+003,7.648927e-003
1.672490e+003,7.261355e-003
1.674901e+003,6.637074e-003
1.677311e+003,6.251278e-003
1.679722e+003,6.345577e-003
1.682133e+003,6.137777e-003
1.684543e+003,5.507994e-003
1.686954e+003,5.738289e-003
1.689365e+003,5.605085e-003
1.691775e+003,5.859914e-003
1.694186e+003,6.048563e-003
1.696596e+003,5.952918e-003
1.699007e+003,5.915231e-003
1.701417e+003,5.791609e-003
1.703828e+003,5.948383e-003
1.706239e+003,6.227547e-003
1.708649e+003,6.429673e-003
1.711060e+003,6.196591e-003
1.713471e+003,6.282070e-003
1.715881e+003,6.538407e-003
1.718292e+003,6.397089e-003
1.720703e+003,5.969345e-003
1.723113e+003,6.000721e-003
1.725524e+003,5.887185e-003
1.727934e+003,5.530914e-003
1.730345e+003,5.281812e-003
1.732756e+003,4.950568e-003
1.735166e+003,4.619778e-003
1.737577e+003,4.639871e-003
1.739988e+003,4.231252e-003
1.742398e+003,4.176150e-003
1.744809e+003,4.184881e-003
1.747219e+003,4.213787e-003
1.749630e+003,3.983730e-003
1.752041e+003,3.643184e-003
1.754451e+003,3.299632e-003
1.756862e+003,3.481160e-003
1.759272e+003,3.308346e-003
1.761683e+003,3.356226e-003
1.764094e+003,3.366277e-003
1.766504e+003,2.919356e-003
1.768915e+003,2.473995e-003
1.771326e+003,2.487425e-003
1.773736e+003,2.734628e-003
1.776147e+003,2.827766e-003
1.778558e+003,2.783112e-003
1.780968e+003,2.892104e-003
1.783379e+003,2.909116e-003
1.785789e+003,2.515518e-003
1.788200e+003,2.149314e-003
1.790611e+003,2.745599e-003
1.793021e+003,2.562378e-003
1.795432e+003,2.148948e-003
1.797843e+003,2.621509e-003
1.800253e+003,2.497322e-003
1.802664e+003,2.161468e-003
1.805074e+003,1.966877e-003
1.807485e+003,2.056088e-003
1.809896e+003,2.491224e-003
1.812306e+003,1.904939e-003
1.814717e+003,1.807873e-003
1.817127e+003,1.697390e-003
1.819538e+003,1.768713e-003
1.821949e+003,1.662797e-003
1.824359e+003,1.402606e-003
1.826770e+003,9.075280e-004
1.829181e+003,1.127589e-003
1.831591e+003,1.713922e-003
1.834002e+003,1.412579e-003
1.836412e+003,1.540812e-003
1.838823e+003,1.717448e-003
1.841234e+003,1.274746e-003
1.843644e+003,1.235236e-003
1.846055e+003,1.550655e-003
1.848466e+003,1.650657e-003
1.850876e+003,1.919183e-003
1.853287e+003,1.169382e-003
1.855698e+003,6.413519e-004
1.858108e+003,7.190146e-006
1.860519e+003,2.752986e-004
1.862929e+003,6.338858e-004
1.865340e+003,9.954594e-004
1.867750e+003,1.213505e-003
1.870161e+003,1.243942e-003
1.872572e+003,1.473383e-003
1.874982e+003,1.027608e-003
1.877393e+003,9.529525e-004
1.879804e+003,1.297643e-003
1.882214e+003,1.379405e-003
1.884625e+003,1.281891e-003
1.887036e+003,1.346100e-003
1.889446e+003,1.642275e-003
1.891857e+003,1.172339e-003
1.894267e+003,1.569975e-003
1.896678e+003,2.140856e-003
1.899089e+003,2.292421e-003
1.901499e+003,1.733882e-003
1.903910e+003,1.911096e-003
1.906321e+003,2.527549e-003
1.908731e+003,1.439805e-003
1.911142e+003,1.811433e-003
1.913552e+003,1.838917e-003
1.915963e+003,7.103781e-004
1.918374e+003,1.136260e-003
1.920784e+003,1.501477e-003
1.923195e+003,6.167640e-004
1.925605e+003,4.556169e-005
1.928016e+003,-8.090579e-005
1.930427e+003,-2.912168e-004
1.932837e+003,1.255299e-004
1.935248e+003,-4.593261e-004
1.937659e+003,-8.631780e-004
1.940069e+003,-1.059526e-003
1.942480e+003,-1.016786e-003
1.944890e+003,-6.134409e-004
1.947301e+003,-2.121749e-003
1.949712e+003,-1.301607e-003
1.952122e+003,-5.557329e-004
1.954533e+003,-2.343601e-004
1.956944e+003,3.625714e-004
1.959354e+003,-2.209744e-003
1.961765e+003,-5.112556e-003
1.964176e+003,-1.186630e-003
1.966586e+003,4.155007e-004
1.968997e+003,6.601783e-003
1.971407e+003,6.538911e-003
1.973818e+003,3.858585e-003
1.976229e+003,3.141040e-003
1.978639e+003,7.003851e-003
1.981050e+003,4.039176e-003
1.983460e+003,-4.718243e-003
1.985871e+003,-3.595657e-003
1.988282e+003,7.354027e-004
1.990692e+003,-1.598555e-003
1.993103e+003,-1.158047e-003
1.995514e+003,2.965025e-003
1.997924e+003,1.980457e-003
2.000335e+003,-1.432339e-003
2.002745e+003,-2.686465e-003
2.005156e+003,-7.272131e-004
2.007567e+003,-2.413656e-003
2.009977e+003,-1.576899e-003
2.012388e+003,-1.702795e-003
2.014799e+003,-3.595493e-003
2.017209e+003,-6.312586e-003
2.019620e+003,-5.256779e-003
2.022031e+003,-1.769459e-003
2.024441e+003,9.591955e-004
2.026852e+003,-7.568175e-004
2.029262e+003,3.744435e-004
2.031673e+003,5.434175e-003
2.034083e+003,2.840040e-003
2.036494e+003,1.470790e-003
2.038905e+003,1.940849e-003
2.041315e+003,-7.540390e-004
2.043726e+003,2.085086e-003
2.046137e+003,-7.536752e-004
2.048547e+003,-3.474450e-003
2.050958e+003,-8.048086e-004
2.053368e+003,6.745030e-004
2.055779e+003,9.954607e-005
2.058190e+003,1.309707e-003
2.060600e+003,3.807708e-003
2.063011e+003,4.545273e-003
2.065422e+003,2.007453e-003
2.067832e+003,7.245497e-004
2.070243e+003,6.834964e-004
2.072654e+003,8.906942e-004
2.075064e+003,1.681889e-003
2.077475e+003,3.089213e-003
2.079885e+003,2.356180e-003
2.082296e+003,1.109801e-004
2.084707e+003,4.202103e-004
2.087117e+003,1.404800e-003
2.089528e+003,2.065676e-003
2.091938e+003,1.960919e-003
2.094349e+003,3.600843e-004
2.096760e+003,5.839491e-004
2.099170e+003,8.459734e-004
2.101581e+003,1.273317e-003
2.103991e+003,2.248188e-003
2.106402e+003,2.231336e-003
2.108813e+003,1.937055e-003
2.111223e+003,1.086166e-003
2.113634e+003,1.423050e-003
2.116045e+003,1.279133e-003
2.118455e+003,1.611345e-003
2.120866e+003,1.438907e-003
2.123277e+003,1.223872e-003
2.125687e+003,1.632497e-003
2.128098e+003,7.128008e-004
2.130509e+003,4.381204e-004
2.132919e+003,-1.440761e-003
2.135330e+003,-3.283459e-005
2.137740e+003,1.058297e-003
2.140151e+003,-8.040479e-004
2.142562e+003,-6.077499e-004
2.144972e+003,4.693653e-004
2.147383e+003,9.593283e-004
2.149793e+003,1.345402e-003
2.152204e+003,-5.198343e-003
2.154615e+003,-7.506412e-003
2.157025e+003,-2.232391e-003
2.159436e+003,1.806176e-003
2.161846e+003,2.364209e-003
2.164257e+003,1.557305e-003
2.166668e+003,-5.445477e-004
2.169078e+003,3.910914e-004
2.171489e+003,-1.962594e-003
2.173900e+003,-1.575238e-004
2.176310e+003,1.762858e-003
2.178721e+003,-1.553326e-003
2.181132e+003,3.241056e-004
2.183542e+003,2.095940e-003
2.185953e+003,5.479850e-004
2.188363e+003,1.218788e-003
2.190774e+003,3.208495e-003
2.193185e+003,1.308511e-003
2.195595e+003,-3.006867e-004
2.198006e+003,-1.467212e-003
2.200417e+003,-3.099577e-004
2.202827e+003,-2.862687e-005
2.205238e+003,-1.211874e-004
2.207648e+003,1.625978e-003
2.210059e+003,2.187975e-003
2.212469e+003,3.507329e-004
2.214880e+003,1.166226e-003
2.217291e+003,-4.398966e-004
2.219701e+003,7.214299e-004
2.222112e+003,2.209155e-003
2.224523e+003,2.765706e-003
2.226933e+003,2.212286e-003
2.229344e+003,1.814428e-003
2.231755e+003,1.870596e-003
2.234165e+003,1.136592e-003
2.236576e+003,5.468902e-004
2.238986e+003,-3.570713e-004
2.241397e+003,9.383086e-004
2.243808e+003,9.638445e-004
2.246218e+003,1.250488e-003
2.248629e+003,1.789441e-003
2.251040e+003,1.991142e-003
2.253450e+003,1.402872e-003
2.255861e+003,1.610347e-003
2.258271e+003,1.746191e-003
2.260682e+003,1.306184e-003
2.263093e+003,1.899681e-003
2.265503e+003,3.169209e-003
2.267914e+003,4.420200e-003
2.270324e+003,3.107033e-003
2.272735e+003,3.026748e-003
2.275146e+003,2.996119e-003
2.277556e+003,3.141407e-003
2.279967e+003,4.167351e-003
2.282378e+003,5.045725e-003
2.284788e+003,4.811039e-003
2.287199e+003,4.053457e-003
2.289610e+003,4.002791e-003
2.292020e+003,3.925082e-003
2.294431e+003,3.557120e-003
2.296841e+003,3.481461e-003
2.299252e+003,4.032153e-003
2.301663e+003,4.021351e-003
2.304073e+003,3.562432e-003
2.306484e+003,3.754698e-003
2.308895e+003,3.427555e-003
2.311305e+003,3.726023e-003
2.313716e+003,4.369491e-003
2.316126e+003,4.155776e-003
2.318537e+003,5.073247e-003
2.320948e+003,5.392842e-003
2.323358e+003,5.898806e-003
2.325769e+003,4.669411e-003
2.328179e+003,3.751623e-003
2.330590e+003,3.099057e-003
2.333001e+003,2.503854e-003
2.335411e+003,2.928196e-003
2.337822e+003,3.031018e-003
2.340233e+003,3.156727e-003
2.342643e+003,2.202528e-003
2.345054e+003,2.359111e-003
2.347464e+003,2.207057e-003
2.349875e+003,2.036580e-003
2.352286e+003,1.841346e-003
2.354696e+003,2.107926e-003
2.357107e+003,2.759703e-003
2.359518e+003,1.450909e-003
2.361928e+003,1.519099e-003
2.364339e+003,2.502754e-003
2.366750e+003,1.729990e-003
2.369160e+003,8.793061e-004
2.371571e+003,1.364381e-003
2.373981e+003,1.878982e-003
2.376392e+003,1.464805e-003
2.378802e+003,1.135363e-003
2.381213e+003,1.209917e-003
2.383624e+003,1.325859e-003
2.386034e+003,1.448249e-003
2.388445e+003,1.661134e-003
2.390856e+003,1.751414e-003
2.393266e+003,1.842344e-003
2.395677e+003,1.891860e-003
2.398088e+003,1.900779e-003
2.400498e+003,2.202928e-003
2.402909e+003,2.512752e-003
2.405319e+003,1.948438e-003
2.407730e+003,2.074932e-003
2.410141e+003,2.250586e-003
2.412551e+003,2.714389e-003
2.414962e+003,2.542247e-003
2.417373e+003,2.399757e-003
2.419783e+003,2.042905e-003
2.422194e+003,2.206092e-003
2.424604e+003,2.239396e-003
2.427015e+003,2.008917e-003
2.429426e+003,2.000496e-003
2.431836e+003,2.154009e-003
2.434247e+003,2.522983e-003
2.436657e+003,2.921825e-003
2.439068e+003,2.309542e-003
2.441479e+003,1.906337e-003
2.443889e+003,2.586943e-003
2.446300e+003,2.994818e-003
2.448711e+003,2.761637e-003
2.451121e+003,2.458134e-003
2.453532e+003,2.407387e-003
2.455943e+003,2.343754e-003
2.458353e+003,2.417016e-003
2.460764e+003,2.823998e-003
2.463174e+003,2.867389e-003
2.465585e+003,2.886067e-003
2.467996e+003,2.678082e-003
2.470406e+003,2.248455e-003
2.472817e+003,2.643544e-003
2.475228e+003,2.928363e-003
2.477638e+003,2.241960e-003
2.480049e+003,2.249121e-003
2.482459e+003,2.568777e-003
2.484870e+003,2.144852e-003
2.487281e+003,2.405288e-003
2.489691e+003,2.672181e-003
2.492102e+003,2.605976e-003
2.494512e+003,2.566844e-003
2.496923e+003,2.480493e-003
2.499334e+003,2.957219e-003
2.501744e+003,2.996986e-003
2.504155e+003,2.875527e-003
2.506566e+003,2.980138e-003
2.508976e+003,2.765372e-003
2.511387e+003,2.923760e-003
2.513798e+003,2.827866e-003
2.516208e+003,2.964858e-003
2.518619e+003,3.132496e-003
2.521029e+003,3.542655e-003
2.523440e+003,3.284040e-003
2.525851e+003,3.537644e-003
2.528261e+003,3.385711e-003
2.530672e+003,3.077600e-003
2.533083e+003,3.080970e-003
2.535493e+003,3.458114e-003
2.537904e+003,3.586686e-003
2.540314e+003,3.351451e-003
2.542725e+003,2.944208e-003
2.545135e+003,3.610340e-003
2.547546e+003,3.943170e-003
2.549957e+003,3.998511e-003
2.552367e+003,3.723182e-003
2.554778e+003,3.707876e-003
2.557189e+003,3.773815e-003
2.559599e+003,3.864268e-003
2.562010e+003,4.319625e-003
2.564421e+003,4.724274e-003
2.566831e+003,4.487352e-003
2.569242e+003,4.123931e-003
2.571652e+003,3.998945e-003
2.574063e+003,4.410727e-003
2.576474e+003,4.697478e-003
2.578884e+003,4.637125e-003
2.581295e+003,4.877782e-003
2.583706e+003,4.702837e-003
2.586116e+003,4.389640e-003
2.588527e+003,4.076401e-003
2.590938e+003,4.810670e-003
2.593348e+003,5.141673e-003
2.595759e+003,5.169000e-003
2.598169e+003,5.453702e-003
2.600580e+003,5.631233e-003
2.602990e+003,6.162713e-003
2.605401e+003,6.103064e-003
2.607812e+003,5.894675e-003
2.610222e+003,5.904516e-003
2.612633e+003,6.194171e-003
2.615044e+003,6.075443e-003
2.617454e+003,6.516880e-003
2.619865e+003,6.670484e-003
2.622276e+003,7.222577e-003
2.624686e+003,7.641879e-003
2.627097e+003,7.391833e-003
2.629507e+003,7.462176e-003
2.631918e+003,7.569686e-003
2.634329e+003,7.880056e-003
2.636739e+003,7.825873e-003
2.639150e+003,7.908974e-003
2.641561e+003,8.226037e-003
2.643971e+003,8.269870e-003
2.646382e+003,8.078430e-003
2.648792e+003,8.139635e-003
2.651203e+003,8.307323e-003
2.653614e+003,8.165293e-003
2.656024e+003,8.134807e-003
2.658435e+003,8.095545e-003
2.660845e+003,7.863186e-003
2.663256e+003,7.702144e-003
2.665667e+003,7.521473e-003
2.668077e+003,7.629604e-003
2.670488e+003,7.634898e-003
2.672899e+003,7.608596e-003
2.675309e+003,7.669363e-003
2.677720e+003,7.416335e-003
2.680130e+003,7.263276e-003
2.682541e+003,7.194514e-003
2.684952e+003,7.345292e-003
2.687362e+003,7.276483e-003
2.689773e+003,7.376802e-003
2.692184e+003,7.281605e-003
2.694594e+003,7.149948e-003
2.697005e+003,7.019678e-003
2.699416e+003,6.795500e-003
2.701826e+003,6.955197e-003
2.704237e+003,7.067699e-003
2.706647e+003,6.960988e-003
2.709058e+003,7.058438e-003
2.711469e+003,7.261153e-003
2.713879e+003,7.490020e-003
2.716290e+003,7.710543e-003
2.718700e+003,7.869733e-003
2.721111e+003,7.741978e-003
2.723522e+003,7.750714e-003
2.725932e+003,7.766264e-003
2.728343e+003,7.660966e-003
2.730753e+003,7.872904e-003
2.733164e+003,8.298069e-003
2.735575e+003,8.598417e-003
2.737985e+003,8.452441e-003
2.740396e+003,8.465447e-003
2.742807e+003,8.473320e-003
2.745217e+003,8.376498e-003
2.747628e+003,8.325832e-003
2.750039e+003,8.589089e-003
2.752449e+003,8.586960e-003
2.754860e+003,8.360216e-003
2.757270e+003,8.552321e-003
2.759681e+003,8.725578e-003
2.762092e+003,8.863869e-003
2.764502e+003,9.126201e-003
2.766913e+003,9.269053e-003
2.769323e+003,9.475004e-003
2.771734e+003,9.814396e-003
2.774145e+003,1.011559e-002
2.776555e+003,1.053196e-002
2.778966e+003,1.122290e-002
2.781377e+003,1.179555e-002
2.783787e+003,1.214020e-002
2.786198e+003,1.261998e-002
2.788608e+003,1.334845e-002
2.791019e+003,1.421572e-002
2.793430e+003,1.520419e-002
2.795840e+003,1.598287e-002
2.798251e+003,1.662085e-002
2.800662e+003,1.748899e-002
2.803072e+003,1.851247e-002
2.805483e+003,1.970033e-002
2.807894e+003,2.099325e-002
2.810304e+003,2.246216e-002
2.812715e+003,2.407364e-002
2.815125e+003,2.604881e-002
2.817536e+003,2.815265e-002
2.819947e+003,3.085480e-002
2.822357e+003,3.454965e-002
2.824768e+003,3.913748e-002
2.827178e+003,4.502662e-002
2.829589e+003,5.357884e-002
2.832000e+003,6.571370e-002
2.834410e+003,8.381976e-002
2.836821e+003,1.118483e-001
2.839231e+003,1.569248e-001
2.841642e+003,2.305414e-001
2.844053e+003,3.431925e-001
2.846463e+003,4.697870e-001
2.848874e+003,4.795083e-001
2.851285e+003,3.604535e-001
2.853695e+003,2.517589e-001
2.856106e+003,1.816056e-001
2.858517e+003,1.359540e-001
2.860927e+003,1.064183e-001
2.863338e+003,8.818834e-002
2.865748e+003,7.801010e-002
2.868159e+003,7.353182e-002
2.870570e+003,7.283080e-002
2.872980e+003,7.487363e-002
2.875391e+003,7.909476e-002
2.877802e+003,8.621306e-002
2.880212e+003,9.620102e-002
2.882623e+003,1.086544e-001
2.885033e+003,1.232914e-001
2.887444e+003,1.395774e-001
2.889855e+003,1.572020e-001
2.892265e+003,1.752167e-001
2.894676e+003,1.934033e-001
2.897086e+003,2.121728e-001
2.899497e+003,2.330058e-001
2.901908e+003,2.582235e-001
2.904318e+003,2.924202e-001
2.906729e+003,3.417301e-001
2.909140e+003,4.106810e-001
2.911550e+003,4.905841e-001
2.913961e+003,5.394529e-001
2.916372e+003,5.195747e-001
2.918782e+003,4.488985e-001
2.921193e+003,3.687652e-001
2.923603e+003,3.004075e-001
2.926014e+003,2.460552e-001
2.928425e+003,2.026217e-001
2.930835e+003,1.670083e-001
2.933246e+003,1.375677e-001
2.935656e+003,1.129118e-001
2.938067e+003,9.244417e-002
2.940478e+003,7.586455e-002
2.942888e+003,6.275022e-002
2.945299e+003,5.290239e-002
2.947709e+003,4.629187e-002
2.950120e+003,4.212697e-002
2.952531e+003,3.985588e-002
2.954941e+003,3.837360e-002
2.957352e+003,3.689152e-002
2.959763e+003,3.486589e-002
2.962173e+003,3.214638e-002
2.964584e+003,2.885923e-002
2.966995e+003,2.526751e-002
2.969405e+003,2.192295e-002
2.971816e+003,1.923379e-002
2.974226e+003,1.732217e-002
2.976637e+003,1.549810e-002
2.979048e+003,1.369017e-002
2.981458e+003,1.229584e-002
2.983869e+003,1.122857e-002
2.986280e+003,1.027953e-002
2.988690e+003,9.961373e-003
2.991101e+003,9.739875e-003
2.993511e+003,9.329376e-003
2.995922e+003,8.852506e-003
2.998333e+003,8.494809e-003
3.000743e+003,7.987400e-003
3.003154e+003,7.910425e-003
3.005564e+003,7.808735e-003
3.007975e+003,7.679380e-003
3.010386e+003,7.617363e-003
3.012796e+003,7.201892e-003
3.015207e+003,6.957823e-003
3.017618e+003,6.750268e-003
3.020028e+003,6.474300e-003
3.022439e+003,6.414070e-003
3.024850e+003,6.340635e-003
3.027260e+003,6.330683e-003
3.029671e+003,6.215279e-003
3.032081e+003,6.146750e-003
3.034492e+003,6.252589e-003
3.036903e+003,6.079274e-003
3.039313e+003,5.975627e-003
3.041724e+003,5.779084e-003
3.044135e+003,5.499907e-003
3.046545e+003,5.515913e-003
3.048956e+003,5.378349e-003
3.051366e+003,4.950803e-003
3.053777e+003,4.870745e-003
3.056188e+003,4.972789e-003
3.058598e+003,4.865552e-003
3.061009e+003,4.736132e-003
3.063419e+003,4.610167e-003
3.065830e+003,4.564626e-003
3.068241e+003,4.451297e-003
3.070651e+003,4.615994e-003
3.073062e+003,4.532851e-003
3.075473e+003,4.597275e-003
3.077883e+003,4.385088e-003
3.080294e+003,4.403664e-003
3.082704e+003,4.525519e-003
3.085115e+003,4.397037e-003
3.087526e+003,4.472622e-003
3.089936e+003,4.279971e-003
3.092347e+003,4.076869e-003
3.094758e+003,4.100984e-003
3.097168e+003,4.296936e-003
3.099579e+003,4.014161e-003
3.101990e+003,3.814025e-003
3.104400e+003,3.798883e-003
3.106811e+003,3.482496e-003
3.109221e+003,3.432832e-003
3.111632e+003,3.421310e-003
3.114042e+003,3.549871e-003
3.116453e+003,3.490980e-003
3.118864e+003,3.483598e-003
3.121274e+003,3.244714e-003
3.123685e+003,3.357061e-003
3.126096e+003,3.451100e-003
3.128506e+003,3.376495e-003
3.130917e+003,3.460218e-003
3.133328e+003,3.400104e-003
3.135738e+003,3.289883e-003
3.138149e+003,3.141374e-003
3.140559e+003,3.424349e-003
3.142970e+003,3.466330e-003
3.145381e+003,3.483030e-003
3.147791e+003,3.300934e-003
3.150202e+003,3.477619e-003
3.152613e+003,3.550405e-003
3.155023e+003,3.439745e-003
3.157434e+003,3.564636e-003
3.159844e+003,3.655046e-003
3.162255e+003,3.706840e-003
3.164666e+003,3.563734e-003
3.167076e+003,3.800521e-003
3.169487e+003,3.967312e-003
3.171897e+003,3.960357e-003
3.174308e+003,3.967613e-003
3.176719e+003,4.161831e-003
3.179129e+003,4.205122e-003
3.181540e+003,4.182640e-003
3.183951e+003,4.553610e-003
3.186361e+003,4.637226e-003
3.188772e+003,4.747220e-003
3.191182e+003,4.603737e-003
3.193593e+003,4.715297e-003
3.196004e+003,4.612210e-003
3.198414e+003,4.524313e-003
3.200825e+003,4.461005e-003
3.203236e+003,4.229747e-003
3.205646e+003,4.360488e-003
3.208057e+003,4.039578e-003
3.210468e+003,3.800922e-003
3.212878e+003,3.610306e-003
3.215289e+003,3.790260e-003
3.217699e+003,4.096469e-003
3.220110e+003,4.135873e-003
3.222521e+003,4.090515e-003
3.224931e+003,3.808677e-003
3.227342e+003,3.636835e-003
3.229752e+003,3.868012e-003
3.232163e+003,3.782238e-003
3.234574e+003,3.649799e-003
3.236984e+003,3.518671e-003
3.239395e+003,3.450566e-003
3.241806e+003,3.750955e-003
3.244216e+003,3.345374e-003
3.246627e+003,3.166406e-003
3.249037e+003,3.320165e-003
3.251448e+003,3.865739e-003
3.253859e+003,4.305469e-003
3.256269e+003,4.118746e-003
3.258680e+003,3.665337e-003
3.261091e+003,3.478054e-003
3.263501e+003,3.689697e-003
3.265912e+003,3.598813e-003
3.268323e+003,3.691000e-003
3.270733e+003,3.775420e-003
3.273144e+003,3.620931e-003
3.275554e+003,3.438376e-003
3.277965e+003,3.659356e-003
3.280375e+003,3.997474e-003
3.282786e+003,3.864134e-003
3.285197e+003,3.615552e-003
3.287607e+003,3.770440e-003
3.290018e+003,3.985436e-003
3.292429e+003,3.944474e-003
3.294839e+003,3.975705e-003
3.297250e+003,4.033859e-003
3.299660e+003,3.901143e-003
3.302071e+003,3.860892e-003
3.304482e+003,3.958819e-003
3.306892e+003,4.165377e-003
3.309303e+003,3.999146e-003
3.311714e+003,3.934577e-003
3.314124e+003,3.838995e-003
3.316535e+003,3.899170e-003
3.318946e+003,4.007473e-003
3.321356e+003,4.004932e-003
3.323767e+003,3.922273e-003
3.326177e+003,4.220579e-003
3.328588e+003,4.236539e-003
3.330999e+003,4.229546e-003
3.333409e+003,4.213018e-003
3.335820e+003,4.215092e-003
3.338230e+003,4.647474e-003
3.340641e+003,4.484841e-003
3.343052e+003,4.550396e-003
3.345462e+003,4.574069e-003
3.347873e+003,4.742664e-003
3.350283e+003,4.990250e-003
3.352694e+003,5.086287e-003
3.355105e+003,5.128329e-003
3.357515e+003,4.830471e-003
3.359926e+003,4.973928e-003
3.362337e+003,4.819750e-003
3.364747e+003,4.863441e-003
3.367158e+003,5.223591e-003
3.369569e+003,5.347856e-003
3.371979e+003,4.963069e-003
3.374390e+003,4.715967e-003
3.376800e+003,4.769765e-003
3.379211e+003,5.059938e-003
3.381622e+003,4.902914e-003
3.384032e+003,4.898893e-003
3.386443e+003,5.267893e-003
3.388854e+003,5.168564e-003
3.391264e+003,5.056083e-003
3.393675e+003,4.996518e-003
3.396085e+003,4.836770e-003
3.398496e+003,4.503656e-003
3.400907e+003,4.262236e-003
3.403317e+003,4.222252e-003
3.405728e+003,4.128179e-003
3.408138e+003,3.834082e-003
3.410549e+003,3.995434e-003
3.412960e+003,3.868881e-003
3.415370e+003,3.611175e-003
3.417781e+003,3.644219e-003
3.420192e+003,3.688494e-003
3.422602e+003,3.547031e-003
3.425013e+003,3.433032e-003
3.427424e+003,3.642114e-003
3.429834e+003,3.697216e-003
3.432245e+003,3.205158e-003
3.434655e+003,3.283373e-003
3.437066e+003,3.440513e-003
3.439477e+003,3.385711e-003
3.441887e+003,3.303171e-003
3.444298e+003,3.182727e-003
3.446708e+003,3.272356e-003
3.449119e+003,3.717066e-003
3.451530e+003,3.403677e-003
3.453940e+003,3.401406e-003
3.456351e+003,3.442083e-003
3.458761e+003,3.022243e-003
3.461172e+003,2.985609e-003
3.463583e+003,3.124553e-003
3.465993e+003,2.810858e-003
3.468404e+003,2.787114e-003
3.470815e+003,2.994351e-003
3.473225e+003,2.967727e-003
3.475636e+003,2.826532e-003
3.478047e+003,2.909182e-003
3.480457e+003,2.996719e-003
3.482868e+003,2.852547e-003
3.485278e+003,2.712122e-003
3.487689e+003,3.049270e-003
3.490100e+003,3.368547e-003
3.492510e+003,3.352520e-003
3.494921e+003,2.880763e-003
3.497332e+003,2.462199e-003
3.499742e+003,2.687817e-003
3.502153e+003,2.797485e-003
3.504563e+003,2.630110e-003
3.506974e+003,2.223876e-003
3.509385e+003,2.170859e-003
3.511795e+003,2.264675e-003
3.514206e+003,2.277399e-003
3.516616e+003,2.440640e-003
3.519027e+003,2.576776e-003
3.521438e+003,2.571710e-003
3.523848e+003,2.803221e-003
3.526259e+003,2.792816e-003
3.528670e+003,2.694051e-003
3.531080e+003,2.082589e-003
3.533491e+003,2.054224e-003
3.535902e+003,2.218647e-003
3.538312e+003,2.041241e-003
3.540723e+003,2.130667e-003
3.543133e+003,2.250053e-003
3.545544e+003,2.042273e-003
3.547955e+003,2.044237e-003
3.550365e+003,2.125040e-003
3.552776e+003,2.008118e-003
3.555187e+003,1.788542e-003
3.557597e+003,1.922910e-003
3.560008e+003,2.099269e-003
3.562418e+003,1.967110e-003
3.564829e+003,1.773338e-003
3.567240e+003,2.182447e-003
3.569650e+003,2.068440e-003
3.572061e+003,1.864972e-003
3.574471e+003,2.183479e-003
3.576882e+003,2.366274e-003
3.579293e+003,2.444538e-003
3.581703e+003,2.460133e-003
3.584114e+003,2.327997e-003
3.586525e+003,1.981722e-003
3.588935e+003,2.625209e-003
3.591346e+003,2.360611e-003
3.593756e+003,1.851429e-003
3.596167e+003,1.937787e-003
3.598578e+003,1.998265e-003
3.600988e+003,2.842908e-003
3.603399e+003,3.257433e-003
3.605810e+003,2.811191e-003
3.608220e+003,2.661246e-003
3.610631e+003,2.902578e-003
3.613042e+003,2.827066e-003
3.615452e+003,2.559078e-003
3.617863e+003,2.935168e-003
3.620273e+003,2.510019e-003
3.622684e+003,2.292721e-003
3.625094e+003,2.081490e-003
3.627505e+003,2.537247e-003
3.629916e+003,2.731761e-003
3.632326e+003,2.470396e-003
3.634737e+003,2.312807e-003
3.637148e+003,2.191206e-003
3.639558e+003,2.083721e-003
3.641969e+003,2.577843e-003
3.644380e+003,2.506753e-003
3.646790e+003,2.442939e-003
3.649201e+003,2.764205e-003
3.651611e+003,2.063945e-003
3.654022e+003,2.255516e-003
3.656433e+003,2.798652e-003
3.658843e+003,2.370205e-003
3.661254e+003,1.852493e-003
3.663665e+003,1.763756e-003
3.666075e+003,2.247489e-003
3.668486e+003,2.839106e-003
3.670896e+003,2.348218e-003
3.673307e+003,2.039044e-003
3.675718e+003,1.826739e-003
3.678128e+003,1.622353e-003
3.680539e+003,1.459719e-003
3.682949e+003,1.628805e-003
3.685360e+003,2.325065e-003
3.687771e+003,2.475828e-003
3.690181e+003,2.031420e-003
3.692592e+003,2.132066e-003
3.695003e+003,2.036314e-003
3.697413e+003,1.636189e-003
3.699824e+003,1.849432e-003
3.702234e+003,1.832129e-003
3.704645e+003,2.069838e-003
3.707056e+003,1.708933e-003
3.709466e+003,1.889697e-003
3.711877e+003,2.366907e-003
3.714288e+003,1.875720e-003
3.716698e+003,1.591025e-003
3.719109e+003,1.915356e-003
3.721520e+003,2.044270e-003
3.723930e+003,2.224808e-003
3.726341e+003,2.256848e-003
3.728751e+003,2.321834e-003
3.731162e+003,2.666980e-003
3.733573e+003,2.949246e-003
3.735983e+003,2.710889e-003
3.738394e+003,2.071403e-003
3.740804e+003,1.778262e-003
3.743215e+003,1.755506e-003
3.745626e+003,1.612709e-003
3.748036e+003,2.067507e-003
3.750447e+003,1.959388e-003
3.752858e+003,1.481595e-003
3.755268e+003,1.900945e-003
3.757679e+003,2.013578e-003
3.760089e+003,1.911728e-003
3.762500e+003,2.107293e-003
3.764911e+003,2.152511e-003
3.767321e+003,1.825541e-003
3.769732e+003,1.889664e-003
3.772143e+003,1.938985e-003
3.774553e+003,1.900113e-003
3.776964e+003,2.133231e-003
3.779375e+003,1.912693e-003
3.781785e+003,2.066375e-003
3.784196e+003,1.870662e-003
3.786606e+003,1.786712e-003
3.789017e+003,2.247289e-003
3.791427e+003,2.452202e-003
3.793838e+003,2.441673e-003
3.796249e+003,2.148848e-003
3.798659e+003,1.875720e-003
3.801070e+003,1.712891e-003
3.803481e+003,2.135396e-003
3.805891e+003,2.546613e-003
3.808302e+003,2.215516e-003
3.810712e+003,2.100801e-003
3.813123e+003,2.155774e-003
3.815534e+003,2.137593e-003
3.817944e+003,1.931564e-003
3.820355e+003,2.079393e-003
3.822766e+003,2.358312e-003
3.825176e+003,2.549412e-003
3.827587e+003,2.583909e-003
3.829998e+003,2.380400e-003
3.832408e+003,2.010116e-003
3.834819e+003,1.970971e-003
3.837229e+003,1.977229e-003
3.839640e+003,1.920914e-003
3.842051e+003,2.135362e-003
3.844461e+003,2.298417e-003
3.846872e+003,2.078494e-003
3.849282e+003,2.230936e-003
3.851693e+003,2.573043e-003
3.854104e+003,2.727126e-003
3.856514e+003,2.341988e-003
3.858925e+003,2.158471e-003
3.861336e+003,2.556978e-003
3.863746e+003,2.284027e-003
3.866157e+003,1.887135e-003
3.868567e+003,2.211820e-003
3.870978e+003,2.490890e-003
3.873389e+003,2.564644e-003
3.875799e+003,2.381666e-003
3.878210e+003,2.204959e-003
3.880621e+003,1.898949e-003
3.883031e+003,2.156873e-003
3.885442e+003,2.051760e-003
3.887853e+003,2.030488e-003
3.890263e+003,2.275600e-003
3.892674e+003,2.457700e-003
3.895084e+003,2.254416e-003
3.897495e+003,2.147982e-003
3.899906e+003,2.109125e-003
3.902316e+003,2.059884e-003
3.904727e+003,2.366041e-003
3.907137e+003,2.398624e-003
3.909548e+003,2.194302e-003
3.911959e+003,2.279364e-003
3.914369e+003,2.513918e-003
3.916780e+003,2.239362e-003
3.919190e+003,2.375036e-003
3.921601e+003,2.532215e-003
3.924012e+003,2.494023e-003
3.926422e+003,2.465598e-003
3.928833e+003,2.282528e-003
3.931244e+003,2.364009e-003
3.933654e+003,2.629210e-003
3.936065e+003,2.648178e-003
3.938476e+003,2.479394e-003
3.940886e+003,2.181715e-003
3.943297e+003,2.147582e-003
3.945707e+003,2.581043e-003
3.948118e+003,2.782545e-003
3.950529e+003,2.534981e-003
3.952939e+003,2.417516e-003
3.955350e+003,2.520883e-003
3.957760e+003,2.382299e-003
3.960171e+003,2.403422e-003
3.962582e+003,2.052892e-003
3.964992e+003,1.933294e-003
3.967403e+003,2.216549e-003
3.969813e+003,2.089081e-003
3.972224e+003,2.122776e-003
3.974635e+003,2.150147e-003
3.977045e+003,2.075964e-003
3.979456e+003,2.295785e-003
3.981867e+003,2.454268e-003
3.984277e+003,2.406087e-003
3.986688e+003,2.376369e-003
3.989099e+003,2.403455e-003
3.991509e+003,2.247256e-003
3.993920e+003,2.363742e-003
3.996330e+003,2.391594e-003
3.998741e+003,2.240861e-003
4.000188e+003,2.224742e-003